Folder: voltammetry_meas_eval

Note: README.md
# voltammetry_meas_eval

This code was created to help researchers in the field of bioelectrical development to automate their measurement evaluations.

![example evaluation plot](https://github.com/bielseb/voltammetry_meas_eval/blob/main/GCE_1Vs-0.01Vs_2-11-21_meas1.png?raw=true)

File: Test-CV-with_Flat-ITO.txt
WE(1).Potential (V)	WE(1).Current (A)	WE(1).Current (A)	WE(1).Current (A)	WE(1).Current (A)	WE(1).Current (A)	WE(1).Current (A)	WE(1).Current (A)	WE(1).Current (A)	WE(1).Current (A)	WE(1).Current (A)
-0.197968	-3.9917e-05	-1.10016e-05	-9.86633e-06	-8.88977e-06	-7.99866e-06	-7.16858e-06	-6.30188e-06	-5.41077e-06	-4.50134e-06	-3.45764e-06
-0.114838	-2.02576e-05	-1.12915e-06	-8.81958e-07	-7.69043e-07	-8.3313e-07	-7.99561e-07	-8.88062e-07	-9.58252e-07	-1.10779e-06	-1.32141e-06
-0.0316071	-1.36871e-05	-3.35693e-07	-2.89917e-07	-2.34985e-07	-2.62451e-07	-3.63159e-07	-4.39453e-07	-6.16455e-07	-8.14819e-07	-1.11084e-06
0.0513	-9.92126e-06	8.23975e-08	1.80054e-07	1.49536e-07	7.93457e-08	-7.62939e-08	-1.89209e-07	-3.87573e-07	-6.073e-07	-9.46045e-07
0.134277	-6.65283e-06	8.17871e-07	8.48389e-07	7.41577e-07	6.2561e-07	4.39453e-07	2.92969e-07	4.27246e-08	-2.80762e-07	-6.40869e-07
0.217133	-5.52368e-07	4.75769e-06	4.71802e-06	4.49524e-06	4.25415e-06	3.9856e-06	3.6438e-06	3.20129e-06	2.64893e-06	1.81885e-06
0.300049	3.54187e-05	4.0387e-05	3.98254e-05	3.90198e-05	3.80646e-05	3.68164e-05	3.53241e-05	3.34045e-05	3.06641e-05	2.60803e-05
0.382935	0.000116638	0.000123779	0.000120514	0.000116577	0.000112061	0.000106537	9.98535e-05	9.13391e-05	7.98035e-05	6.18591e-05
0.465759	0.000143677	0.000149414	0.000142914	0.000135498	0.000127045	0.000117493	0.000106476	9.33838e-05	7.70569e-05	5.46875E-05
0.548737	0.000136322	0.000140778	0.000133209	0.000124847	0.000115662	0.00010553	9.41772e-05	8.11462e-05	6.55212e-05	4.51172e-05
0.631683	0.000123016	0.000126892	0.000119598	0.000111481	0.000102753	9.31702e-05	8.26416e-05	7.06787e-05	5.65796e-05	3.85223e-05
0.714813	0.000110474	0.000114105	0.0001073	9.9823e-05	9.17358e-05	8.30078e-05	7.33643e-05	6.25916e-05	4.98657e-05	3.38165e-05
0.798035	0.000100006	0.000103394	9.71375e-05	9.0271e-05	8.28857e-05	7.49207e-05	6.61316e-05	5.63354e-05	4.48792e-05	3.0365e-05
0.719635	7.80334e-05	8.13904e-05	7.69348e-05	7.18384e-05	6.64368e-05	6.04553e-05	5.3894e-05	4.63623e-05	3.74054e-05	2.57935e-05
0.636505	6.53076e-05	6.8512e-05	6.49719e-05	6.10046e-05	5.66711e-05	5.18188e-05	4.63715e-05	4.01917e-05	3.27026e-05	2.28119e-05
0.553619	5.39856e-05	5.68848e-05	5.42297e-05	5.11475e-05	4.77234e-05	4.39117e-05	3.95996e-05	3.45734e-05	2.84058e-05	2.00897e-05
0.470673	4.15497e-05	4.41925e-05	4.22852e-05	4.02069e-05	3.77747e-05	3.49915e-05	3.18542e-05	2.81555e-05	2.34772e-05	1.69586e-05
0.387848	2.14661e-05	2.35413e-05	2.26898e-05	2.16125e-05	2.04498e-05	1.90887e-05	1.7514e-05	1.56097e-05	1.31287e-05	9.58557e-06
0.304932	-2.44354e-05	-2.31293e-05	-2.30103e-05	-2.29218e-05	-2.27875e-05	-2.25403e-05	-2.22595e-05	-2.17316e-05	-2.08801e-05	-1.90063e-05
0.221954	-6.40869e-05	-6.15234e-05	-6.03333e-05	-5.89905e-05	-5.74341e-05	-5.55115e-05	-5.31311e-05	-4.99268e-05	-4.53003e-05	-3.74146e-05
0.139099	-7.58972e-05	-7.04651e-05	-6.80847e-05	-6.55212e-05	-6.24695e-05	-5.9082e-05	-5.49927e-05	-4.98657e-05	-4.30695e-05	-3.28491e-05
0.0561829	-7.57446e-05	-6.81458e-05	-6.50635e-05	-6.17981e-05	-5.81665e-05	-5.41077e-05	-4.93561e-05	-4.37592e-05	-3.67096e-05	-2.68372e-05
-0.0267334	-7.02515e-05	-6.1615e-05	-5.83801e-05	-5.49011e-05	-5.12085e-05	-4.71222e-05	-4.25415e-05	-3.71979e-05	-3.07556e-05	-2.20551e-05
-0.109894	-6.31104e-05	-5.42297e-05	-5.09644e-05	-4.77173e-05	-4.42352e-05	-4.05426e-05	-3.6319e-05	-3.15399e-05	-2.58728e-05	-1.8399e-05
-0.193085	-5.61829e-05	-4.7467e-05	-4.44061e-05	-4.14642e-05	-3.8266e-05	-3.48907e-05	-3.12439e-05	-2.69928e-05	-2.20612e-05	-1.56616e-05
-0.124603	-3.97369e-05	-3.27942e-05	-3.09753e-05	-2.90863e-05	-2.70721e-05	-2.49481e-05	-2.25159e-05	-1.97693e-05	-1.64795e-05	-1.20392e-05
-0.0413696	-3.04596e-05	-2.50336e-05	-2.36053e-05	-2.23297e-05	-2.08405e-05	-1.93207e-05	-1.76086e-05	-1.56097e-05	-1.32019e-05	-9.87244e-06
0.0416687	-2.34192e-05	-1.89545e-05	-1.79871e-05	-1.70227e-05	-1.60858e-05	-1.4978e-05	-1.37665e-05	-1.23627e-05	-1.05988e-05	-8.12988e-06
0.124512	-1.69891e-05	-1.35986e-05	-1.29456e-05	-1.23444e-05	-1.17004e-05	-1.10992e-05	-1.03058e-05	-9.38416e-06	-8.19702e-06	-6.47583e-06
0.207397	-8.73413e-06	-6.37817e-06	-6.03333e-06	-5.80444e-06	-5.54504e-06	-5.29175e-06	-4.97131e-06	-4.58679e-06	-4.07104e-06	-3.29285e-06
0.290283	2.27417e-05	2.45911e-05	2.44293e-05	2.40967e-05	2.36359e-05	2.30164e-05	2.22687e-05	2.12708e-05	1.98181e-05	1.72516e-05
0.37323	0.000100494	0.0001026	0.000100433	9.765625E-05	9.42993e-05	9.0271e-05	8.52661e-05	7.88269e-05	6.98547e-05	5.54504e-05
0.456177	0.000130219	0.000130737	0.000125366	0.000119202	0.000112274	0.000104279	9.49707e-05	8.38318e-05	6.97327e-05	5.01404e-05
0.539001	0.000123322	0.000122711	0.000116455	0.000109344	0.0001015625	9.29565e-05	8.31604e-05	7.19604e-05	5.83496e-05	4.0509e-05
0.621796	0.000110504	0.000109955	0.000103851	9.69543e-05	8.95081e-05	8.13293e-05	7.22656e-05	6.20117e-05	4.97742e-05	3.40973e-05
0.704926	9.88464e-05	9.84802e-05	9.26514e-05	8.63647e-05	7.94983e-05	7.1991e-05	6.37207e-05	5.44739e-05	4.35364e-05	2.96661e-05
0.787659	8.91724e-05	8.91113e-05	8.37402e-05	7.78809e-05	7.15942e-05	6.47888e-05	5.72815e-05	4.88251e-05	3.89648e-05	2.64923e-05
0.729431	7.01904e-05	7.06482e-05	6.67419e-05	6.2439e-05	5.78003e-05	5.26123e-05	4.68445e-05	4.02863e-05	3.25439e-05	2.24945e-05
0.646362	5.83801e-05	5.94177e-05	5.63965e-05	5.29175e-05	4.90967e-05	4.49371e-05	4.02679e-05	3.48724e-05	2.83905e-05	1.9873e-05
0.563385	4.85016e-05	4.9585e-05	4.72656e-05	4.45374e-05	4.15863e-05	3.82294e-05	3.44666e-05	3.00812e-05	2.47284e-05	1.75385e-05
0.480469	3.7854e-05	3.89648e-05	3.72955e-05	3.53912e-05	3.32733e-05	3.08105e-05	2.8006e-05	2.47375e-05	2.06024e-05	1.49323e-05
0.397522	2.1167e-05	2.22504e-05	2.14508e-05	2.05048e-05	1.93634e-05	1.81e-05	1.65955e-05	1.48132e-05	1.24847e-05	9.20715e-06
0.314728	-2.02911e-05	-1.95099e-05	-1.94e-05	-1.92719e-05	-1.91864e-05	-1.89941e-05	-1.87378e-05	-1.8338e-05	-1.75903e-05	-1.59973e-05
0.231781	-6.41479e-05	-6.25E-05	-6.13708e-05	-6.00891e-05	-5.85632e-05	-5.67322e-05	-5.43823e-05	-5.1239e-05	-4.66888e-05	-3.88458e-05
0.148865	-7.99866e-05	-7.58972e-05	-7.33032e-05	-7.06177e-05	-6.75354e-05	-6.38733e-05	-5.95703e-05	-5.41077e-05	-4.68048e-05	-3.57178e-05
0.065979	-8.17261e-05	-7.57446e-05	-7.23877e-05	-6.87866e-05	-6.47583e-05	-6.03027e-05	-5.50537e-05	-4.87701e-05	-4.08966e-05	-2.97943e-05
-0.0169556	-7.70569e-05	-7.02515e-05	-6.65283e-05	-6.26221e-05	-5.83801e-05	-5.37415e-05	-4.84894e-05	-4.23584e-05	-3.48999e-05	-2.48383e-05
-0.100128	-7.01904e-05	-6.30493e-05	-5.93567e-05	-5.5481e-05	-5.14526e-05	-4.70245e-05	-4.21295e-05	-3.65326e-05	-2.98248e-05	-2.10022e-05
-0.183289	-6.30493e-05	-5.59998e-05	-5.24597e-05	-4.88983e-05	-4.5163e-05	-4.11743e-05	-3.67126e-05	-3.16772e-05	-2.5769e-05	-1.80756e-05
-0.134399	-4.61548e-05	-4.0564e-05	-3.815e-05	-3.57819e-05	-3.32397e-05	-3.05054e-05	-2.74719e-05	-2.39685e-05	-1.98212e-05	-1.42578e-05
-0.051239	-3.55621e-05	-3.12653e-05	-2.94495e-05	-2.7771e-05	-2.59583e-05	-2.39594e-05	-2.17529e-05	-1.91925e-05	-1.60614e-05	-1.17767e-05
0.031897	-2.76031e-05	-2.41425e-05	-2.28943e-05	-2.16248e-05	-2.03217e-05	-1.89087e-05	-1.73004e-05	-1.54358e-05	-1.31042e-05	-9.82056e-06
0.114746	-2.04041e-05	-1.77643e-05	-1.6983e-05	-1.61804e-05	-1.53534e-05	-1.43677e-05	-1.32904e-05	-1.20056e-05	-1.03699e-05	-7.96204e-06
0.197662	-1.21521e-05	-1.02539e-05	-9.84802e-06	-9.3811e-06	-8.97217e-06	-8.52966e-06	-7.94983e-06	-7.26318e-06	-6.39038e-06	-5.02014e-06
0.280518	1.47217e-05	1.59729e-05	1.58417e-05	1.57379e-05	1.5451e-05	1.51215e-05	1.47339e-05	1.4212e-05	1.3324e-05	1.17981e-05
0.363464	8.984375E-05	9.11255e-05	8.94775e-05	8.73108e-05	8.46558e-05	8.13904e-05	7.73315e-05	7.2052e-05	6.45447e-05	5.22461e-05
0.44632	0.000125702	0.000125061	0.000120392	0.000114777	0.000108368	0.000100983	9.23462e-05	8.19702e-05	6.8634e-05	4.98657e-05
0.529236	0.000119934	0.000118225	0.000112183	0.000105652	9.82971e-05	9.00574e-05	8.08105e-05	7.00989e-05	5.70679e-05	3.98621e-05
0.612091	0.000107452	0.000105469	9.96704e-05	9.31396e-05	8.60901e-05	7.83386e-05	6.97021e-05	5.9845e-05	4.82117e-05	3.3197e-05
0.69516	9.54895e-05	9.39941e-05	8.84094e-05	8.24585e-05	7.59888e-05	6.89087e-05	6.10962e-05	5.22461e-05	4.18549e-05	2.86682e-05
0.778198	8.57544e-05	8.45642e-05	7.95288e-05	7.40662e-05	6.80847e-05	6.16455e-05	5.45654e-05	4.65302e-05	3.72162e-05	2.54242e-05
0.739166	6.80237e-05	6.75049e-05	6.38733e-05	5.97534e-05	5.52063e-05	5.0293e-05	4.47662e-05	3.85468e-05	3.11554e-05	2.16095e-05
0.656097	5.65796e-05	5.65186e-05	5.36194e-05	5.0415e-05	4.66919e-05	4.27765e-05	3.83423e-05	3.32245e-05	2.70782e-05	1.89972e-05
0.57312	4.69147e-05	4.72961e-05	4.49707e-05	4.245e-05	3.95813e-05	3.64166e-05	3.28308e-05	2.8653e-05	2.35596e-05	1.67694e-05
0.490234	3.70483e-05	3.74939e-05	3.58246e-05	3.40759e-05	3.19458e-05	2.96722e-05	2.69379e-05	2.37396e-05	1.97876e-05	1.43463e-05
0.407379	2.2345e-05	2.30377e-05	2.21741e-05	2.11365e-05	2.005e-05	1.87408e-05	1.71814e-05	1.53473e-05	1.30035e-05	9.64966e-06
0.324463	-1.49506e-05	-1.43829e-05	-1.43951e-05	-1.43402e-05	-1.42548e-05	-1.41846e-05	-1.40686e-05	-1.38062e-05	-1.33362e-05	-1.22467e-05
0.241547	-6.19202e-05	-6.06995e-05	-5.96313e-05	-5.85022e-05	-5.71289e-05	-5.54199e-05	-5.32837e-05	-5.03845e-05	-4.61548e-05	-3.87451e-05
0.15863	-8.09631e-05	-7.74841e-05	-7.50732e-05	-7.23572e-05	-6.93359e-05	-6.57349e-05	-6.14319e-05	-5.59387e-05	-4.85657e-05	-3.7262e-05
0.0757141	-8.43506e-05	-7.92236e-05	-7.57141e-05	-7.20215e-05	-6.79016e-05	-6.32629e-05	-5.78308e-05	-5.13611e-05	-4.30573e-05	-3.13568e-05
-0.00717163	-8.05969e-05	-7.44934e-05	-7.05872e-05	-6.64673e-05	-6.20422e-05	-5.70984e-05	-5.15137e-05	-4.50195e-05	-3.70605e-05	-2.63031e-05
-0.0903931	-7.37915e-05	-6.74744e-05	-6.35681e-05	-5.95093e-05	-5.51453e-05	-5.0415e-05	-4.51294e-05	-3.91144e-05	-3.18787e-05	-2.2345e-05
-0.173462	-6.68335e-05	-6.04858e-05	-5.65796e-05	-5.28564e-05	-4.86786e-05	-4.43695e-05	-3.95538e-05	-3.41187e-05	-2.76733e-05	-1.92963e-05
-0.144135	-5.00183e-05	-4.51294e-05	-4.24225e-05	-3.96698e-05	-3.68988e-05	-3.38013e-05	-3.03009e-05	-2.63947e-05	-2.16858e-05	-1.54327e-05
-0.0610046	-3.87329e-05	-3.4787e-05	-3.28857e-05	-3.09418e-05	-2.8894e-05	-2.66174e-05	-2.41272e-05	-2.11853e-05	-1.76331e-05	-1.28082e-05
0.005078125	-3.19153e-05	-2.8537e-05	-2.71484e-05	-2.55646e-05	-2.39746e-05	-2.22351e-05	-2.02637e-05	-1.79443e-05	-1.5097e-05	-1.11206e-05

File: Test-CV-with_Porous-ITO.txt
WE(1).Potential (V)	WE(1).Current (A)	WE(1).Current (A)	WE(1).Current (A)	WE(1).Current (A)	WE(1).Current (A)	WE(1).Current (A)	WE(1).Current (A)	WE(1).Current (A)	WE(1).Current (A)	WE(1).Current (A)	WE(1).Current (A)	WE(1).Current (A)	WE(1).Current (A)	WE(1).Current (A)	WE(1).Current (A)	WE(1).Current (A)	WE(1).Current (A)	WE(1).Current (A)	WE(1).Current (A)	WE(1).Current (A)	WE(1).Current (A)
-0.197998	-0.00219025	-0.00203857	-0.00199036	-0.00193054	-0.00186279	-0.00177734	-0.00166962	-0.00152771	-0.00132019	-0.00116882	-0.000950623	-0.000830688	-0.00067749	-0.000585327	-0.0003526	-0.000223083	-8.77991e-05	-3.84186e-05	-2.4765e-05	-1.82709e-05	-1.10229e-05
-0.0291046	0.00023764	0.000358673	0.000353638	0.00034433	0.000329437	0.000307068	0.000274536	0.000228271	0.000164917	0.00012674	8.49609e-05	6.7627e-05	4.99268e-05	4.10278e-05	2.25189e-05	1.28601e-05	3.86353e-06	5.43213e-07	-1.09863e-07	-2.34985e-07	-3.96729e-07
0.138977	0.00063324	0.000652771	0.000601501	0.000543823	0.000480164	0.000410858	0.000336029	0.00025647	0.000173096	0.000130524	8.68225e-05	6.90918e-05	5.09949e-05	4.18823e-05	2.31598e-05	1.34064e-05	4.41895e-06	1.08337e-06	3.14331e-07	8.8501e-08	-1.70898e-07
0.307251	0.000856323	0.000841064	0.000784912	0.000725708	0.000664673	0.000601196	0.000534973	0.00046286	0.000379089	0.000327423	0.000263733	0.000231812	0.00019455	0.000172455	0.000121033	8.77686e-05	4.87732e-05	2.63489e-05	1.67419e-05	1.17279e-05	6.79626e-06
0.475525	0.00136475	0.00132324	0.00124298	0.00115173	0.00104828	0.00092804	0.000785828	0.000613403	0.000398712	0.000277649	0.000163452	0.000124878	9.1217e-05	7.56531e-05	4.65179e-05	3.17566e-05	1.74347e-05	1.04004e-05	7.3822e-06	5.65491e-06	3.72925e-06
0.643707	0.00134552	0.00126556	0.00113037	0.000984802	0.000829773	0.000668335	0.000506592	0.000355103	0.000223389	0.0001651	0.000110748	8.92639e-05	6.80542e-05	5.7373e-05	3.60107e-05	2.48016e-05	1.39771e-05	8.73413e-06	6.36902e-06	4.95911e-06	3.49121e-06
0.787964	0.000863953	0.000778503	0.000658569	0.000540466	0.000427612	0.000322754	0.000228516	0.000146637	7.91626e-05	5.14221e-05	3.03711e-05	2.38495e-05	1.92627e-05	1.73859e-05	1.5152e-05	1.38672e-05	1.10504e-05	7.94678e-06	5.91736e-06	4.62952e-06	3.33557e-06
0.619385	-0.00014502	-0.000155945	-0.000171082	-0.000176941	-0.000173187	-0.000159576	-0.000136597	-0.000105621	-6.87256e-05	-4.89807e-05	-2.83447e-05	-2.02698e-05	-1.21918e-05	-8.39539e-06	-9.70459e-07	2.32544e-06	4.23584e-06	3.85742e-06	3.15552e-06	2.57874e-06	1.98975e-06
0.451202	-0.000414917	-0.000390808	-0.000364685	-0.000332672	-0.000295532	-0.000253632	-0.00020752	-0.000157471	-0.000103943	-7.62024e-05	-4.776e-05	-3.64319e-05	-2.50763e-05	-1.95648e-05	-8.47168e-06	-3.11584e-06	1.15662e-06	2.09351e-06	1.95007e-06	1.69373e-06	1.3916e-06
0.282898	-0.000679016	-0.000644226	-0.000606689	-0.000565186	-0.00052063	-0.000472565	-0.000420715	-0.000363037	-0.000296021	-0.000255829	-0.000205994	-0.00018161	-0.000153229	-0.00013678	-9.78394e-05	-7.24487e-05	-4.15955e-05	-2.27173e-05	-1.43127e-05	-9.9884e-06	-5.52979e-06
0.114716	-0.00129425	-0.00124481	-0.00117096	-0.00108612	-0.000990295	-0.000880432	-0.000752258	-0.000596924	-0.000402374	-0.0002890625	-0.000174377	-0.000132507	-9.47571e-05	-7.75757e-05	-4.58099e-05	-3.05389e-05	-1.58936e-05	-8.85925e-06	-6.02722e-06	-4.49829e-06	-2.74048e-06
-0.0537109	-0.00134583	-0.00123474	-0.00110901	-0.000973206	-0.000829163	-0.000679932	-0.000530396	-0.000385712	-0.000250244	-0.000186371	-0.00012442	-0.000100525	-7.65381e-05	-6.47583e-05	-4.00177e-05	-2.70508e-05	-1.38885e-05	-7.54395e-06	-5.13e-06	-3.86963e-06	-2.55127e-06
-0.178406	-0.000797119	-0.000697937	-0.000594177	-0.00049054	-0.000389709	-0.000291962	-0.0001987	-0.000112061	-3.71582e-05	-8.48999e-06	1.00128e-05	1.25946e-05	1.20667e-05	1.02142e-05	4.40674e-06	-2.53296e-07	-4.23889e-06	-4.79431e-06	-4.17175e-06	-3.41187e-06	-2.47803e-06
-0.00953064	0.000342957	0.000358459	0.000360199	0.000352783	0.000335754	0.000308502	0.000269684	0.00021817	0.000153168	0.00011615	7.66296e-05	6.05469e-05	4.40979e-05	3.60046e-05	1.91589e-05	1.05988e-05	2.91138e-06	3.2959e-07	-1.67847e-07	-2.41089e-07	-2.74658e-07
0.1586	0.000605164	0.000578308	0.000538025	0.000490356	0.00043631	0.000375824	0.000309326	0.000237396	0.000161072	0.00012149	8.078e-05	6.41174e-05	4.72076e-05	3.87146e-05	2.13348e-05	1.22925e-05	4.04358e-06	1.01624e-06	3.14331e-07	7.32422e-08	-9.46045e-08
0.326843	0.000877686	0.000843506	0.00079834	0.000749817	0.000697327	0.000640869	0.000578918	0.000508118	0.000419586	0.000362732	0.000290192	0.000253052	0.000209259	0.000183228	0.000123444	8.62122e-05	4.54742e-05	2.42737e-05	1.57196e-05	1.13129e-05	6.88171e-06
0.495056	0.00136749	0.00130005	0.00121368	0.00111572	0.00100433	0.000876465	0.000727539	0.000549622	0.000340149	0.000232513	0.000139832	0.000108673	8.05969e-05	6.71692e-05	4.16016e-05	2.84698e-05	1.57928e-05	9.56421e-06	6.83899e-06	5.21545e-06	3.479e-06
0.6633	0.00125488	0.0011496	0.00102081	0.000883484	0.000739746	0.000593872	0.000450745	0.000319061	0.0002034	0.000151184	0.000101685	8.20923e-05	6.26526e-05	5.28564e-05	3.33344e-05	2.30682e-05	1.32965e-05	8.48694e-06	6.21338e-06	4.80347e-06	3.40576e-06
0.769043	0.000556946	0.000472504	0.00037912	0.000290344	0.000208923	0.000137024	7.70264e-05	3.17719e-05	4.84619e-06	-5.92041e-07	5.85937e-07	2.35596e-06	4.97437e-06	6.14624e-06	8.73718e-06	9.42993e-06	8.57849e-06	6.52466e-06	4.96826e-06	3.92456e-06	2.88696e-06
0.599854	-0.000224762	-0.000232117	-0.000233307	-0.000226227	-0.000211212	-0.00018811	-0.000157501	-0.000120544	-7.88574e-05	-5.69153e-05	-3.41614e-05	-2.51312e-05	-1.61285e-05	-1.18042e-05	-3.25012e-06	6.89697e-07	3.34167e-06	3.35693e-06	2.78625e-06	2.31628e-06	1.80664e-06
0.431671	-0.000458099	-0.000431976	-0.0003992	-0.000361359	-0.000319275	-0.000272949	-0.000222992	-0.000169708	-0.00011319	-8.38623e-05	-5.36194e-05	-4.14886e-05	-2.92053e-05	-2.31873e-05	-1.09436e-05	-4.84314e-06	2.47192e-07	1.61133e-06	1.60522e-06	1.44653e-06	1.22986e-06
0.263367	-0.000757751	-0.000723572	-0.000683594	-0.000640259	-0.000593567	-0.000543518	-0.000488678	-0.000428223	-0.000355621	-0.000308319	-0.000248505	-0.000218964	-0.000184235	-0.000163757	-0.000115295	-8.37708e-05	-4.6344e-05	-2.4588e-05	-1.53259e-05	-1.05957e-05	-5.91736e-06
0.0952148	-0.00133331	-0.00127441	-0.00119507	-0.00110382	-0.00100037	-0.000881348	-0.0007421875	-0.000574951	-0.000372406	-0.000262695	-0.000159393	-0.000122925	-8.94775e-05	-7.38831e-05	-4.42535e-05	-2.95685e-05	-1.52771e-05	-8.42896e-06	-5.68542e-06	-4.23279e-06	-2.59094e-06
-0.0732727	-0.00134186	-0.00122742	-0.00109802	-0.000959778	-0.00081604	-0.000669556	-0.000524292	-0.000384277	-0.000252014	-0.000188843	-0.000127136	-0.000103058	-7.87964e-05	-6.6864e-05	-4.15436e-05	-2.81982e-05	-1.45844e-05	-7.99255e-06	-5.48401e-06	-4.22363e-06	-2.8656e-06
-0.158875	-0.000559998	-0.000471527	-0.000381226	-0.000293274	-0.000209381	-0.000130798	-6.00891e-05	-6.98853e-07	3.9093e-05	4.62769e-05	4.13025e-05	3.51135e-05	2.67456e-05	2.18018e-05	1.05225e-05	4.14429e-06	-1.44043e-06	-2.948e-06	-2.72827e-06	-2.35596e-06	-1.80359e-06
0.010022	0.000385864	0.000392273	0.000386902	0.000372864	0.000349854	0.000317108	0.000273682	0.000218658	0.000151855	0.000114594	7.52258e-05	5.93262e-05	4.31274e-05	3.51837e-05	1.87195e-05	1.03638e-05	2.89307e-06	3.84521e-07	-8.54492e-08	-1.86157e-07	-2.19727e-07
0.178131	0.000612488	0.000581665	0.000539856	0.000491211	0.00043634	0.000375397	0.000309143	0.00023819	0.000163055	0.000124023	8.36182e-05	6.70166e-05	5.00183e-05	4.13116e-05	2.34283e-05	1.39374e-05	5.02625e-06	1.51367e-06	5.82886e-07	2.65503e-07	3.35693e-08
0.346222	0.000942688	0.000906372	0.000862122	0.000813599	0.000761108	0.000703125	0.000637207	0.000559692	0.000459442	0.000393127	0.000306946	0.000262634	0.000210815	0.000180664	0.000113708	7.52869e-05	3.78357e-05	2.04956e-05	1.36566e-05	1.00769e-05	6.39343e-06
0.514465	0.00137726	0.00130005	0.00120636	0.00110077	0.000982056	0.000846558	0.000689392	0.000505676	0.000303162	0.000207703	0.000128357	0.000100952	7.5592e-05	6.32324e-05	3.93127e-05	2.69135e-05	1.4917e-05	9.03625e-06	6.44226e-06	4.92859e-06	3.33862e-06
0.682861	0.00121063	0.00110168	0.000974121	0.000838623	0.000699158	0.000559692	0.000425934	0.000303467	0.000195007	0.000145508	9.8175e-05	7.93762e-05	6.073e-05	5.12695e-05	3.25043e-05	2.26013e-05	1.315e-05	8.36792e-06	6.09436e-06	4.71497e-06	3.32336e-06
0.748962	0.00036792	0.000294159	0.000218018	0.000148254	8.72192e-05	3.69324e-05	-1.06812e-07	-2.14294e-05	-2.47589e-05	-1.94153e-05	-9.77783e-06	-5.38025e-06	-7.26318e-07	1.41907e-06	5.6488e-06	7.1991e-06	7.21741e-06	5.65186e-06	4.3457e-06	3.48816e-06	2.60315e-06
0.580383	-0.000270111	-0.000271515	-0.000265472	-0.000252075	-0.000231262	-0.000203461	-0.000169098	-0.000129059	-8.46558e-05	-6.14319e-05	-3.74847e-05	-2.78961e-05	-1.83258e-05	-1.36932e-05	-4.55322e-06	-2.65503e-07	2.78015e-06	2.97546e-06	2.52686e-06	2.10266e-06	1.70898e-06
0.412201	-0.00048288	-0.000454102	-0.000418396	-0.000378082	-0.000333618	-0.000285339	-0.000233459	-0.000178406	-0.000120209	-8.99048e-05	-5.85327e-05	-4.58069e-05	-3.28339e-05	-2.63702e-05	-1.32019e-05	-6.46667e-06	-7.01904e-07	1.08643e-06	1.26038e-06	1.18103e-06	1.05286e-06
0.243958	-0.000834656	-0.000799561	-0.000758667	-0.000714417	-0.000666504	-0.000614624	-0.000557861	-0.000493958	-0.000409424	-0.000352966	-0.00028186	-0.000246155	-0.000203949	-0.000178925	-0.000120514	-8.39233e-05	-4.34113e-05	-2.22046e-05	-1.37665e-05	-9.57947e-06	-5.44739e-06
0.0756531	-0.00136292	-0.00129486	-0.0012088	-0.00111084	-0.00099884	-0.000870361	-0.00072113	-0.000544434	-0.000342102	-0.000240387	-0.000148773	-0.00011615	-8.56628e-05	-7.1167e-05	-4.30145e-05	-2.87628e-05	-1.48041e-05	-8.10242e-06	-5.4657e-06	-4.03137e-06	-2.45056e-06
-0.0928345	-0.00132629	-0.0012088	-0.00107819	-0.000940552	-0.00079895	-0.000656433	-0.000516357	-0.000381378	-0.000252258	-0.000190094	-0.000128815	-0.000104736	-8.04138e-05	-6.83899e-05	-4.27734e-05	-2.92145e-05	-1.5274e-05	-8.54797e-06	-5.96008e-06	-4.65393e-06	-3.23792e-06
-0.139313	-0.000366821	-0.000289978	-0.000213562	-0.000140808	-7.36084e-05	-1.38916e-05	3.57452e-05	7.0282e-05	8.12683e-05	7.33948e-05	5.50537e-05	4.4986e-05	3.33649e-05	2.72278e-05	1.3855e-05	6.70471e-06	2.99072e-07	-1.70288e-06	-1.85852e-06	-1.67236e-06	-1.34277e-06
0.00512085	0.000368988	0.00037735	0.000374512	0.000362823	0.000341858	0.000311066	0.000269501	0.000216064	0.000150421	0.000113647	7.47375e-05	5.9021e-05	4.296875E-05	3.5144e-05	1.87805e-05	1.04706e-05	3.02124e-06	4.5166e-07	-3.96729e-08	-1.67847e-07	-2.13623e-07